File: DataAnalysisMS-main/DataAnalysisMS-main/Spyder/ECdata.txt
EC-Lab ASCII FILE
Nb header lines : 70

Cyclic Voltammetry Advanced

Run on channel : 1 (SN 1732)
User :
Electrode connection : standard
Ewe ctrl range : min = -10,00 V, max = 10,00 V
Ewe,I filtering : 50 kHz
Safety Limits :
	Do not start on E overload
Channel : Grounded
Acquisition started on : 06/21/2021 17:22:49.735
Loaded Setting File :  NONE
Saved on :
	File : Cubes_Tim_01MKHCO3_21062021_B_t1_02_CVA_C01.mpr
	Directory : C:\Users\DEMS 2019\Documents\EC-Lab\Data\Jorge\
	Host : 192.168.1.101
Device : SP-200 (SN 0161)
Address : USB
EC-Lab for windows v11.36 (software)
Internet server v11.36 (firmware)
Command interpretor v11.36 (firmware)
Electrode material :
Initial state :
Electrolyte :
Comments :
Cable : standard
Reference electrode : SCE Saturated Calomel Electrode (0,241 V)
Electrode surface area : 0,001 cmÂ²
Characteristic mass : 0,001 g
Equivalent Weight : 0,000 g/eq.
Density : 0,000 g/cm3
Cycle Definition : Charge/Discharge alternance
Ei (V)              -0,010
vs.                 Ref
ti (h:m:s)          0:00:0,0000
dti (s)             1,0000
dE/dt               10,000
dE/dt unit          mV/s
E1 (V)              0,540
vs.                 Ref
t1 (h:m:s)          0:00:0,0000
dt1 (s)             0,0000
Step percent        50
N                   20
E range min (V)     -10,000
E range max (V)     10,000
I Range             100 mA
I Range min         Unset
I Range max         Unset
I Range init        Unset
Bandwidth           6
E2 (V)              -1,250
vs.                 Ref
t2 (h:m:s)          0:00:0,0000
dt2 (s)             0,1000
nc cycles           200
nr                  1
Reverse Scan        1
Ef (V)              0,490
vs.                 Ref
tf (h:m:s)          0:10:0,0000
dtf (s)             0,1000

Number of loops : 1
Loop 0 from point number 0 to 9824

mode	ox/red	error	control changes	Ns changes	counter inc.	time/s	control/V	Ewe/V	<I>/mA	cycle number	(Q-Qo)/C	I Range	P/W
2	0	0	0	0	0	3,287859916937305E+001	-9,9525508E-003	-1,0446908E-002	-9,174361079931259E-002	1,000000000000000E+000	0,0000000E+000	38	9,5843711E-007
2	0	0	1	0	0	5,189159868906427E+001	1,8017747E-001	1,7978606E-001	-2,972944491484794E-002	1,000000000000000E+000	-1,0061968E-003	38	-5,3449398E-006
2	0	0	1	0	0	7,122139820075245E+001	3,7347540E-001	3,7305877E-001	-3,360286233972477E-003	1,000000000000000E+000	-1,3009997E-003	38	-1,2535843E-006
2	1	0	1	0	0	8,890699775397661E+001	5,2944452E-001	5,2905881E-001	1,089614613766143E-002	1,000000000000000E+000	-1,1681665E-003	38	5,7647021E-006
2	1	0	1	0	0	1,082365972656698E+002	3,3614865E-001	3,3576694E-001	-1,388537540447152E-002	1,000000000000000E+000	-1,2645731E-003	38	-4,6622499E-006
2	0	0	1	0	0	1,275662967773605E+002	1,4285174E-001	1,4247145E-001	-4,105054342595327E-002	1,000000000000000E+000	-1,7474003E-003	38	-5,8485302E-006
2	0	0	1	0	0	1,468959962890513E+002	-5,0445206E-002	-5,0928965E-002	-7,959680148087001E-002	1,000000000000000E+000	-2,9191268E-003	38	4,0537830E-006
2	0	0	1	0	0	1,662255958007445E+002	-2,4374138E-001	-2,4423881E-001	-3,613561901047317E-001	1,000000000000000E+000	-6,3787824E-003	38	8,8257206E-005
2	0	0	1	0	0	1,855552953124352E+002	-4,3703848E-001	-4,3748903E-001	-9,201099577573153E-001	1,000000000000000E+000	-2,2181619E-002	38	4,0253802E-004
2	0	0	1	0	0	2,048849948241259E+002	-6,3033557E-001	-6,3087189E-001	-1,777719065548730E+000	1,000000000000000E+000	-4,2964403E-002	38	1,1215130E-003
2	0	0	1	0	0	2,242145943358191E+002	-8,2363147E-001	-8,2417011E-001	-5,169736509769095E+000	1,000000000000000E+000	-1,0642575E-001	38	4,2607421E-003
2	0	0	1	0	0	2,435443938475073E+002	-1,0169296E+000	-1,0174812E+000	-9,520574296828698E+000	1,000000000000000E+000	-2,4298492E-001	38	9,6870055E-003
2	0	0	1	0	0	2,628739933592005E+002	-1,2102256E+000	-1,2107841E+000	-1,770449051307050E+001	1,000000000000000E+000	-5,0180960E-001	38	2,1436315E-002
2	0	0	1	0	1	2,811823928966915E+002	-1,1065788E+000	-1,1071336E+000	-1,159632616361887E+001	1,000000000000000E+000	-7,9028451E-001	38	1,2838683E-002
2	0	0	1	0	1	3,005121924083796E+002	-9,1328084E-001	-9,1379970E-001	-5,284791638590875E+000	1,000000000000000E+000	-9,4528848E-001	38	4,8292410E-003
2	0	0	1	0	1	3,198417919200729E+002	-7,1998483E-001	-7,2047585E-001	-2,220970006876442E+000	1,000000000000000E+000	-1,0148964E+000	38	1,6001553E-003
2	0	0	1	0	1	3,391713914317661E+002	-5,2668875E-001	-5,2718729E-001	-7,799855612016646E-001	1,000000000000000E+000	-1,0408125E+000	38	4,1119847E-004
2	0	0	1	0	1	3,585011909434543E+002	-3,3339059E-001	-3,3386388E-001	-4,370556254300819E-001	1,000000000000000E+000	-1,0524410E+000	38	1,4591709E-004
2	0	0	1	0	1	3,778307904551475E+002	-1,4009447E-001	-1,4057016E-001	-2,142753811523166E-001	1,000000000000000E+000	-1,0585135E+000	38	3,0120726E-005
2	0	0	1	0	1	3,958939899988327E+002	4,0537436E-002	4,0106580E-002	-1,283753826849235E-001	2,000000000000000E+000	-1,0614723E+000	38	-5,1486977E-006
2	0	0	1	0	1	4,152236895105234E+002	2,3383446E-001	2,3346761E-001	-7,212778346093707E-002	2,000000000000000E+000	-1,0633767E+000	38	-1,6839502E-005
2	0	0	1	0	1	4,345533890222141E+002	4,2713138E-001	4,2680752E-001	7,948780676506791E-004	2,000000000000000E+000	-1,0641795E+000	38	3,3925994E-007
2	0	0	1	0	1	4,522055885762820E+002	4,7612250E-001	4,7577488E-001	-4,520163375919217E-002	2,000000000000000E+000	-1,0632670E+000	38	-2,1505803E-005
2	0	0	1	0	1	4,715353880879702E+002	2,8282472E-001	2,8246149E-001	-7,793238863712104E-002	2,000000000000000E+000	-1,0645810E+000	38	-2,2012899E-005
2	0	0	1	0	1	4,908649875996634E+002	8,9528762E-002	8,9148365E-002	-8,607939704640244E-002	2,000000000000000E+000	-1,0661601E+000	38	-7,6738379E-006
2	0	0	1	0	1	5,101945871113567E+002	-1,0376731E-001	-1,0421675E-001	-1,191059684532074E-001	2,000000000000000E+000	-1,0680790E+000	38	1,2412836E-005
2	0	0	1	0	1	5,295243866230448E+002	-2,9706535E-001	-2,9752567E-001	-2,072006547064973E-001	2,000000000000000E+000	-1,0711627E+000	38	6,1647515E-005
2	0	0	1	0	1	5,488539861347381E+002	-4,9036133E-001	-4,9082926E-001	-7,358366749892955E-001	2,000000000000000E+000	-1,0789504E+000	38	3,6117018E-004
2	0	0	1	0	1	5,681836856464288E+002	-6,8365836E-001	-6,8417680E-001	-2,433245567080995E+000	2,000000000000000E+000	-1,1071768E+000	38	1,6647702E-003
2	0	0	1	0	1	5,875133851581195E+002	-8,7695563E-001	-8,7747270E-001	-5,631467266044275E+000	2,000000000000000E+000	-1,1837146E+000	38	4,9414588E-003
2	0	0	1	0	1	6,068429846698127E+002	-1,0702517E+000	-1,0708636E+000	-1,011868105821389E+001	2,000000000000000E+000	-1,3330994E+000	38	1,0835728E-002
2	0	0	1	0	0	6,251514842073011E+002	-1,2465519E+000	-1,2471453E+000	-1,642372129814293E+001	2,000000000000000E+000	-1,5774747E+000	38	2,0482767E-002
2	0	0	1	0	0	6,444811837189918E+002	-1,0532550E+000	-1,0537424E+000	-8,698545714951592E+000	2,000000000000000E+000	-1,8155508E+000	38	9,1660265E-003
2	0	0	1	0	0	6,638107832306850E+002	-8,5995859E-001	-8,6041909E-001	-4,173566761119044E+000	2,000000000000000E+000	-1,9367574E+000	38	3,5910166E-003
2	0	0	1	0	0	6,831404827423758E+002	-6,6666156E-001	-6,6716069E-001	-1,509672495827651E+000	2,000000000000000E+000	-1,9902945E+000	38	1,0071942E-003
2	0	0	1	0	0	7,024701822540665E+002	-4,7336456E-001	-4,7388110E-001	-3,657262538798092E-001	2,000000000000000E+000	-2,0060129E+000	38	1,7331076E-004
2	0	0	1	0	0	7,217997817657597E+002	-2,8006852E-001	-2,8052303E-001	-8,459104870992218E-002	2,000000000000000E+000	-2,0098579E+000	38	2,3729737E-005
2	0	0	1	0	0	7,411295812774479E+002	-8,6770520E-002	-8,7227240E-002	-2,731611323739602E-002	2,000000000000000E+000	-2,0107722E+000	38	2,3827092E-006
2	0	0	1	0	0	7,591927808211331E+002	9,3861468E-002	9,3469575E-002	-9,607916782222413E-004	3,000000000000000E+000	-2,0110328E+000	38	-8,9804793E-008
2	0	0	1	0	0	7,785223803328263E+002	2,8715730E-001	2,8673086E-001	1,053371997862057E-002	3,000000000000000E+000	-2,0109606E+000	38	3,0203425E-006
2	1	0	1	0	0	7,978520798445170E+002	4,8045415E-001	4,8005143E-001	6,486599792109704E-002	3,000000000000000E+000	-2,0103862E+000	38	3,1139014E-005
2	0	0	1	0	0	8,155043793985824E+002	4,2279866E-001	4,2239642E-001	-3,624711246742235E-002	3,000000000000000E+000	-2,0101752E+000	38	-1,5310650E-005
2	0	0	1	0	0	8,348339789102756E+002	2,2950271E-001	2,2909983E-001	-2,896757005819162E-002	3,000000000000000E+000	-2,0107100E+000	38	-6,6364651E-006
2	0	0	1	0	0	8,541637784219638E+002	3,6204711E-002	3,5821322E-002	-4,182887118517603E-002	3,000000000000000E+000	-2,0113711E+000	38	-1,4983655E-006
2	0	0	1	0	0	8,734933779336570E+002	-1,5709127E-001	-1,5754315E-001	-7,287667885084281E-002	3,000000000000000E+000	-2,0124450E+000	38	1,1481222E-005
2	0	0	1	0	0	8,928229774453503E+002	-3,5038733E-001	-3,5083559E-001	-2,083948018384594E-001	3,000000000000000E+000	-2,0146978E+000	38	7,3112315E-005
2	0	0	1	0	0	9,121527769570384E+002	-5,4368532E-001	-5,4419404E-001	-9,642377891262210E-001	3,000000000000000E+000	-2,0243738E+000	38	5,2473246E-004
2	0	0	1	0	0	9,314823764687317E+002	-7,3698139E-001	-7,3754406E-001	-2,843871565027523E+000	3,000000000000000E+000	-2,0579584E+000	38	2,0974805E-003
2	0	0	1	0	0	9,508120759804224E+002	-9,3027848E-001	-9,3080473E-001	-6,294107304351385E+000	3,000000000000000E+000	-2,1436279E+000	38	5,8585848E-003
2	0	0	1	0	0	9,701417754921131E+002	-1,1235756E+000	-1,1241328E+000	-1,191036225390420E+001	3,000000000000000E+000	-2,3149245E+000	38	1,3388828E-002
2	0	0	1	0	1	9,884501750296040E+002	-1,1932288E+000	-1,1937982E+000	-1,467289308976635E+001	3,000000000000000E+000	-2,5905285E+000	38	1,7516473E-002
2	0	0	1	0	1	1,007779774541297E+003	-9,9993277E-001	-1,0004821E+000	-7,312013566636793E+000	3,000000000000000E+000	-2,7970598E+000	38	7,3155384E-003
2	0	0	1	0	1	1,027109574052985E+003	-8,0663472E-001	-8,0715650E-001	-3,176543368788970E+000	3,000000000000000E+000	-2,8950028E+000	38	2,5639676E-003
2	0	0	1	0	1	1,046439173564679E+003	-6,1333883E-001	-6,1382794E-001	-9,605430621217508E-001	3,000000000000000E+000	-2,9317753E+000	38	5,8960816E-004
2	0	0	1	0	1	1,065768873076369E+003	-4,2004171E-001	-4,2051828E-001	-2,077963897435087E-001	3,000000000000000E+000	-2,9415722E+000	38	8,7382177E-005
2	0	0	1	0	1	1,085098572588060E+003	-2,2674453E-001	-2,2721587E-001	-4,009562967866309E-002	3,000000000000000E+000	-2,9435141E+000	38	9,1103639E-006
2	0	0	1	0	1	1,104428172099753E+003	-3,3448532E-002	-3,3915237E-002	-1,666379024416942E-002	3,000000000000000E+000	-2,9440341E+000	38	5,6515637E-007
2	1	0	1	0	1	1,122491371643438E+003	1,4718340E-001	1,4678411E-001	8,931634362151497E-003	4,000000000000000E+000	-2,9441128E+000	38	1,3110221E-006
2	1	0	1	0	1	1,141821171155127E+003	3,4048128E-001	3,4009299E-001	2,213985591375228E-002	4,000000000000000E+000	-2,9438853E+000	38	7,5296098E-006
2	1	0	1	0	1	1,161150770666820E+003	5,3377718E-001	5,3338248E-001	1,204760034619836E-001	4,000000000000000E+000	-2,9428608E+000	38	6,4259788E-005
2	0	0	1	0	1	1,178803170220883E+003	3,6947456E-001	3,6910835E-001	-1,930244949259352E-002	4,000000000000000E+000	-2,9432287E+000	38	-7,1246955E-006
2	0	0	1	0	1	1,198132769732576E+003	1,7617866E-001	1,7578158E-001	-2,997398477064878E-002	4,000000000000000E+000	-2,9436812E+000	38	-5,2688742E-006
2	0	0	1	0	1	1,217462369244269E+003	-1,7117234E-002	-1,7548228E-002	-4,888136427187961E-002	4,000000000000000E+000	-2,9444237E+000	38	8,5778129E-007
2	0	0	1	0	1	1,236792168755957E+003	-2,1041526E-001	-2,1089008E-001	-8,358315912982217E-002	4,000000000000000E+000	-2,9456542E+000	38	1,7626859E-005
2	0	0	1	0	1	1,256121768267651E+003	-4,0371123E-001	-4,0421912E-001	-2,968471976367228E-001	4,000000000000000E+000	-2,9487045E+000	38	1,1999132E-004
2	0	0	1	0	1	1,275451367779344E+003	-5,9700733E-001	-5,9746456E-001	-1,141853455580739E+000	4,000000000000000E+000	-2,9619114E+000	38	6,8221695E-004
2	0	0	1	0	1	1,294781167291032E+003	-7,9030561E-001	-7,9082918E-001	-3,268143655022729E+000	4,000000000000000E+000	-3,0020373E+000	38	2,5845433E-003
2	0	0	1	0	1	1,314110766802725E+003	-9,8360169E-001	-9,8416358E-001	-7,121744184359475E+000	4,000000000000000E+000	-3,0989237E+000	38	7,0089614E-003
2	0	0	1	0	1	1,333440366314419E+003	-1,1768975E+000	-1,1774683E+000	-1,421937246131503E+001	4,000000000000000E+000	-3,2957606E+000	38	1,6742861E-002
2	0	0	1	0	0	1,351748965851904E+003	-1,1399047E+000	-1,1405094E+000	-1,225560347020206E+001	4,000000000000000E+000	-3,5739675E+000	38	1,3977631E-002
2	0	0	1	0	0	1,371078565363598E+003	-9,4660878E-001	-9,4713151E-001	-5,777428543209830E+000	4,000000000000000E+000	-3,7412608E+000	38	5,4719849E-003
2	0	0	1	0	0	1,390408164875291E+003	-7,5331271E-001	-7,5385714E-001	-2,205419082053202E+000	4,000000000000000E+000	-3,8141041E+000	38	1,6625709E-003
2	0	0	1	0	0	1,409737964386979E+003	-5,6001478E-001	-5,6052738E-001	-6,101307142842058E-001	4,000000000000000E+000	-3,8381643E+000	38	3,4199498E-004
2	0	0	1	0	0	1,429067563898672E+003	-3,6671868E-001	-3,6719981E-001	-1,135856904120787E-001	4,000000000000000E+000	-3,8442497E+000	38	4,1708645E-005
2	0	0	1	0	0	1,448397163410365E+003	-1,7342247E-001	-1,7385158E-001	-1,482308660861446E-002	4,000000000000000E+000	-3,8451581E+000	38	2,5770171E-006
2	1	0	1	0	0	1,466460562954046E+003	7,2114910E-003	6,8290615E-003	-3,966925223588831E-003	5,000000000000000E+000	-3,8453159E+000	38	-2,7090376E-008
2	1	0	1	0	0	1,485790162465739E+003	2,0050734E-001	2,0009525E-001	4,933881248352326E-003	5,000000000000000E+000	-3,8452432E+000	38	9,8724615E-007
2	1	0	1	0	0	1,505119761977432E+003	3,9380342E-001	3,9342651E-001	2,960827916899178E-002	5,000000000000000E+000	-3,8449471E+000	38	1,1648682E-005
2	0	0	1	0	0	1,522772161531495E+003	5,0944859E-001	5,0907308E-001	-2,607495603721610E-002	5,000000000000000E+000	-3,8439825E+000	38	-1,3274058E-005
2	0	0	1	0	0	1,542101761043188E+003	3,1615257E-001	3,1576112E-001	-1,919171214574031E-002	5,000000000000000E+000	-3,8445690E+000	38	-6,0599964E-006
2	0	0	1	0	0	1,561431560554876E+003	1,2285467E-001	1,2246574E-001	-3,224097813296878E-002	5,000000000000000E+000	-3,8450716E+000	38	-3,9484153E-006
2	0	0	1	0	0	1,580761160066570E+003	-7,0441216E-002	-7,0924208E-002	-4,646703330367263E-002	5,000000000000000E+000	-3,8458216E+000	38	3,2956375E-006
2	0	0	1	0	0	1,600090759578263E+003	-2,6373726E-001	-2,6420781E-001	-8,745793043922134E-002	5,000000000000000E+000	-3,8470261E+000	38	2,3107068E-005
2	0	0	1	0	0	1,619420559089951E+003	-4,5703548E-001	-4,5753613E-001	-4,456225187097971E-001	5,000000000000000E+000	-3,8511980E+000	38	2,0388840E-004
2	0	0	1	0	0	1,638750158601644E+003	-6,5033150E-001	-6,5081018E-001	-1,463382730827909E+000	5,000000000000000E+000	-3,8686323E+000	38	9,5238438E-004
2	0	0	1	0	0	1,658079758113337E+003	-8,4362745E-001	-8,4415114E-001	-4,040894530529506E+000	5,000000000000000E+000	-3,9193370E+000	38	3,4111256E-003
2	0	0	1	0	0	1,677409557625026E+003	-1,0369254E+000	-1,0374700E+000	-8,541011029564018E+000	5,000000000000000E+000	-4,0384412E+000	38	8,8610426E-003
2	0	0	1	0	0	1,696739157136719E+003	-1,2302216E+000	-1,2307627E+000	-1,636562763640688E+001	5,000000000000000E+000	-4,2734609E+000	38	2,0142205E-002
2	0	0	1	0	1	1,715047556674210E+003	-1,0865830E+000	-1,0871546E+000	-1,007821874293916E+001	5,000000000000000E+000	-4,5270910E+000	38	1,0956582E-002
2	0	0	1	0	1	1,734377356185898E+003	-8,9328486E-001	-8,9381427E-001	-4,560739023019346E+000	5,000000000000000E+000	-4,6617799E+000	38	4,0764534E-003
2	0	0	1	0	1	1,753706955697591E+003	-6,9998872E-001	-7,0047486E-001	-1,456058957981767E+000	5,000000000000000E+000	-4,7161293E+000	38	1,0199327E-003
2	0	0	1	0	1	1,773036555209284E+003	-5,0669277E-001	-5,0719565E-001	-3,657814159103934E-001	5,000000000000000E+000	-4,7315340E+000	38	1,8552275E-004
2	0	0	1	0	1	1,792366354720973E+003	-3,1339455E-001	-3,1386173E-001	-6,314706596822073E-002	5,000000000000000E+000	-4,7349558E+000	38	1,9819447E-005
2	0	0	1	0	1	1,811695954232666E+003	-1,2009849E-001	-1,2057874E-001	-1,565388375298268E-002	5,000000000000000E+000	-4,7355199E+000	38	1,8875255E-006
2	0	0	1	0	1	1,829759153776351E+003	6,0533430E-002	6,0140200E-002	-2,713680314811100E-003	6,000000000000000E+000	-4,7356887E+000	38	-1,6320128E-007
2	1	0	1	0	1	1,849088953288039E+003	2,5383148E-001	2,5342017E-001	8,012242455818580E-003	6,000000000000000E+000	-4,7356067E+000	38	2,0304640E-006
2	1	0	1	0	1	1,868418552799732E+003	4,4712737E-001	4,4673494E-001	4,492430849313522E-002	6,000000000000000E+000	-4,7351708E+000	38	2,0069258E-005
2	0	0	1	0	1	1,886070852353798E+003	4,5612553E-001	4,5572004E-001	-5,220149600709867E-002	6,000000000000000E+000	-4,7346396E+000	38	-2,3789267E-005
2	1	0	1	0	1	1,905400551865489E+003	2,6282862E-001	2,6243076E-001	-2,349961615913437E-002	6,000000000000000E+000	-4,7351022E+000	38	-6,1670221E-006
2	0	0	1	0	1	1,924730151377182E+003	6,9532767E-002	6,9133610E-002	-3,673892791384237E-002	6,000000000000000E+000	-4,7356954E+000	38	-2,5398947E-006
2	0	0	1	0	1	1,944059950888870E+003	-1,2376522E-001	-1,2422100E-001	-5,577800964094704E-002	6,000000000000000E+000	-4,7365813E+000	38	6,9288003E-006
2	0	0	1	0	1	1,963389550400563E+003	-3,1706136E-001	-3,1753486E-001	-1,277060374595013E-001	6,000000000000000E+000	-4,7381005E+000	38	4,0551120E-005
2	0	0	1	0	1	1,982719149912256E+003	-5,1035750E-001	-5,1086682E-001	-6,673114712425079E-001	6,000000000000000E+000	-4,7444148E+000	38	3,4090728E-004
2	0	0	1	0	1	2,002048949423945E+003	-7,0365554E-001	-7,0416963E-001	-1,859810356105527E+000	6,000000000000000E+000	-4,7663922E+000	38	1,3096220E-003
2	0	0	1	0	1	2,021378548935638E+003	-8,9695162E-001	-8,9750969E-001	-4,771078926008627E+000	6,000000000000000E+000	-4,8276439E+000	38	4,2820894E-003
2	0	0	1	0	1	2,040708148447331E+003	-1,0902475E+000	-1,0908221E+000	-9,835771227551419E+000	6,000000000000000E+000	-4,9651623E+000	38	1,0729076E-002
2	0	0	1	0	0	2,059016747984817E+003	-1,2265550E+000	-1,2271427E+000	-1,536370656716181E+001	6,000000000000000E+000	-5,2101851E+000	38	1,8853460E-002
2	0	0	1	0	0	2,078346347496510E+003	-1,0332587E+000	-1,0337960E+000	-7,920176024794301E+000	6,000000000000000E+000	-5,4299407E+000	38	8,1878463E-003
2	0	0	1	0	0	2,097675947008203E+003	-8,3996278E-001	-8,4050924E-001	-3,323220555731830E+000	6,000000000000000E+000	-5,5342951E+000	38	2,7931975E-003
2	0	0	1	0	0	2,117005746519899E+003	-6,4666486E-001	-6,4714909E-001	-9,686957563701395E-001	6,000000000000000E+000	-5,5725293E+000	38	6,2689057E-004
2	0	0	1	0	0	2,136335346031592E+003	-4,5336866E-001	-4,5384154E-001	-2,330827793168928E-001	6,000000000000000E+000	-5,5827279E+000	38	1,0578264E-004
2	0	0	1	0	0	2,155664945543285E+003	-2,6007256E-001	-2,6050773E-001	-4,055348552753724E-002	6,000000000000000E+000	-5,5848827E+000	38	1,0564497E-005
2	0	0	1	0	0	2,174994745054966E+003	-6,6774510E-002	-6,7246266E-002	-1,624693400575633E-002	6,000000000000000E+000	-5,5853434E+000	38	1,0925456E-006
2	1	0	1	0	0	2,193057944598651E+003	1,1385745E-001	1,1343978E-001	-8,792446466568299E-006	7,000000000000000E+000	-5,5855031E+000	38	-9,9741315E-010
2	0	0	1	0	0	2,212387544110345E+003	3,0715346E-001	3,0673096E-001	1,328568560873489E-002	7,000000000000000E+000	-5,5854063E+000	38	4,0751311E-006
2	1	0	1	0	0	2,231717343622033E+003	5,0045133E-001	5,0005877E-001	7,815651429661941E-002	7,000000000000000E+000	-5,5847387E+000	38	3,9082850E-005
2	0	0	1	0	0	2,249369543176101E+003	4,0280271E-001	4,0239465E-001	-1,948268585751806E-002	7,000000000000000E+000	-5,5847106E+000	38	-7,8397288E-006
2	0	0	1	0	0	2,268699242687791E+003	2,0950569E-001	2,0906316E-001	-2,522744206771074E-002	7,000000000000000E+000	-5,5850816E+000	38	-5,2741289E-006
2	0	0	1	0	0	2,288028942199489E+003	1,6208727E-002	1,5806990E-002	-4,347971683062501E-002	7,000000000000000E+000	-5,5857458E+000	38	-6,8728343E-007
2	0	0	1	0	0	2,307358541711183E+003	-1,7708728E-001	-1,7760344E-001	-6,736811311652985E-002	7,000000000000000E+000	-5,5867953E+000	38	1,1964808E-005
2	0	0	1	0	0	2,326688241222866E+003	-3,7038437E-001	-3,7085545E-001	-1,952334814510484E-001	7,000000000000000E+000	-5,5888848E+000	38	7,2403403E-005
2	0	0	1	0	0	2,346017940734557E+003	-5,6368142E-001	-5,6419414E-001	-8,239877968928191E-001	7,000000000000000E+000	-5,5981741E+000	38	4,6488908E-004
2	0	0	1	0	0	2,365347540246250E+003	-7,5697738E-001	-7,5750828E-001	-2,354226157354706E+000	7,000000000000000E+000	-5,6256890E+000	38	1,7833458E-003
2	0	0	1	0	0	2,384677339757953E+003	-9,5027542E-001	-9,5077753E-001	-5,672285492358263E+000	7,000000000000000E+000	-5,7001290E+000	38	5,3930818E-003
2	0	0	1	0	0	2,404006939269646E+003	-1,1435717E+000	-1,1441499E+000	-1,138268404883047E+001	7,000000000000000E+000	-5,8604136E+000	38	1,3023497E-002
2	0	0	1	0	1	2,422315338807130E+003	-1,1732330E+000	-1,1737698E+000	-1,247379522226515E+001	7,000000000000000E+000	-6,1112733E+000	38	1,4641364E-002
2	0	0	1	0	1	2,441645138318811E+003	-9,7993487E-001	-9,8047841E-001	-6,318044563897715E+000	7,000000000000000E+000	-6,2860842E+000	38	6,1947061E-003
2	0	0	1	0	1	2,460974737830504E+003	-7,8663868E-001	-7,8711522E-001	-2,446087534215458E+000	7,000000000000000E+000	-6,3676095E+000	38	1,9253527E-003
2	0	0	1	0	1	2,480304337342197E+003	-5,9334254E-001	-5,9380180E-001	-6,515586460535552E-001	7,000000000000000E+000	-6,3941321E+000	38	3,8689669E-004
2	0	0	1	0	1	2,499634136853900E+003	-4,0004453E-001	-4,0053123E-001	-1,431056460931202E-001	7,000000000000000E+000	-6,4008603E+000	38	5,7318281E-005
2	0	0	1	0	1	2,518963736365593E+003	-2,0674856E-001	-2,0715922E-001	-3,207089017480861E-002	7,000000000000000E+000	-6,4022236E+000	38	6,6437806E-006
2	0	0	1	0	1	2,538293335877279E+003	-1,3452524E-002	-1,3930508E-002	-1,589110985435410E-002	7,000000000000000E+000	-6,4026780E+000	38	2,2137124E-007
2	0	0	1	0	1	2,556356635420954E+003	1,6718043E-001	1,6681638E-001	2,050507076501697E-003	8,000000000000000E+000	-6,4027920E+000	38	3,4205817E-007
2	0	0	1	0	1	2,575686334932645E+003	3,6047736E-001	3,6006731E-001	2,133218205714446E-002	8,000000000000000E+000	-6,4026203E+000	38	7,6810211E-006
2	1	0	0	0	1	2,593655134478715E+003	5,3960997E-001	5,3920406E-001	1,015382010745953E-001	8,000000000000000E+000	-6,4016638E+000	38	5,4749809E-005
2	1	0	1	0	1	2,612668333998401E+003	3,4947869E-001	3,4909245E-001	-1,725252333723060E-002	8,000000000000000E+000	-6,4021306E+000	38	-6,0227258E-006
2	0	0	1	0	1	2,631997933510094E+003	1,5618263E-001	1,5584220E-001	-3,115333716901414E-002	8,000000000000000E+000	-6,4025793E+000	38	-4,8550046E-006
2	0	0	1	0	1	2,651327533021788E+003	-3,7113242E-002	-3,7545059E-002	-5,151118072498750E-002	8,000000000000000E+000	-6,4033771E+000	38	1,9339902E-006
2	0	0	1	0	1	2,670657332533490E+003	-2,3041122E-001	-2,3087433E-001	-8,187415647239638E-002	8,000000000000000E+000	-6,4046297E+000	38	1,8902641E-005
2	0	0	1	0	1	2,689986932045183E+003	-4,2370740E-001	-4,2420140E-001	-3,037299605288712E-001	8,000000000000000E+000	-6,4076595E+000	38	1,2884267E-004
2	0	0	1	0	1	2,709316631556860E+003	-6,1700439E-001	-6,1750740E-001	-1,001849799346349E+000	8,000000000000000E+000	-6,4202185E+000	38	6,1864965E-004
2	0	0	1	0	1	2,728646331068550E+003	-8,1030148E-001	-8,1083232E-001	-3,027808737659058E+000	8,000000000000000E+000	-6,4564276E+000	38	2,4550452E-003
2	0	0	1	0	1	2,747975930580244E+003	-1,0035976E+000	-1,0041727E+000	-6,965441244623815E+000	8,000000000000000E+000	-6,5495677E+000	38	6,9945059E-003
2	0	0	1	0	1	2,767305730091932E+003	-1,1968956E+000	-1,1974391E+000	-1,365990067379769E+001	8,000000000000000E+000	-6,7432151E+000	38	1,6356898E-002
2	0	0	1	0	0	2,785614129629437E+003	-1,1199088E+000	-1,1205187E+000	-1,053352145233681E+001	8,000000000000000E+000	-6,9927106E+000	38	1,1803008E-002
2	0	0	1	0	0	2,804943729141123E+003	-9,2661273E-001	-9,2716980E-001	-4,863288979087635E+000	8,000000000000000E+000	-7,1364241E+000	38	4,5090946E-003
2	0	0	1	0	0	2,824273428652807E+003	-7,3331571E-001	-7,3382473E-001	-1,677089291461598E+000	8,000000000000000E+000	-7,1965322E+000	38	1,2306896E-003
2	0	0	1	0	0	2,843603128164497E+003	-5,4001868E-001	-5,4049230E-001	-4,396610979206708E-001	8,000000000000000E+000	-7,2144394E+000	38	2,3763343E-004
2	0	0	1	0	0	2,862932727676191E+003	-3,4672263E-001	-3,4718552E-001	-9,095461417215645E-002	8,000000000000000E+000	-7,2188110E+000	38	3,1578125E-005
2	0	0	1	0	0	2,882262527187893E+003	-1,5342461E-001	-1,5384582E-001	-3,082774771351970E-002	8,000000000000000E+000	-7,2197514E+000	38	4,7427202E-006
2	0	0	1	0	0	2,900325726731564E+003	2,7207477E-002	2,6800083E-002	-1,554295432579422E-002	9,000000000000000E+000	-7,2201719E+000	38	-4,1655247E-007
2	0	0	1	0	0	2,919655326243257E+003	2,2050337E-001	2,2010641E-001	3,486662922338332E-003	9,000000000000000E+000	-7,2202454E+000	38	7,6743686E-007
2	1	0	1	0	0	2,938984925754950E+003	4,1379932E-001	4,1341498E-001	2,821265821592200E-002	9,000000000000000E+000	-7,2199640E+000	38	1,1663536E-005
2	0	0	1	0	0	2,956637325309028E+003	4,8945263E-001	4,8911282E-001	-4,492683040066298E-002	9,000000000000000E+000	-7,2192402E+000	38	-2,1974289E-005
2	1	0	1	0	0	2,975966924820714E+003	2,9615650E-001	2,9572758E-001	-2,100725779409224E-002	9,000000000000000E+000	-7,2197871E+000	38	-6,2124254E-006
2	0	0	1	0	0	2,995296724332395E+003	1,0285870E-001	1,0249221E-001	-3,692194889769745E-002	9,000000000000000E+000	-7,2203326E+000	38	-3,7842119E-006
2	0	0	1	0	0	3,014626323844088E+003	-9,0437219E-002	-9,0850063E-002	-5,921834853339425E-002	9,000000000000000E+000	-7,2212725E+000	38	5,3799909E-006
2	0	0	1	0	0	3,033955923355781E+003	-2,8373328E-001	-2,8421223E-001	-1,061097515039413E-001	9,000000000000000E+000	-7,2227702E+000	38	3,0157689E-005
2	0	0	1	0	0	3,053285722867484E+003	-4,7703138E-001	-4,7751328E-001	-4,672582368704354E-001	9,000000000000000E+000	-7,2273049E+000	38	2,2312201E-004
2	0	0	1	0	0	3,072615322379177E+003	-6,7032737E-001	-6,7078418E-001	-1,310224451854779E+000	9,000000000000000E+000	-7,2433681E+000	38	8,7887782E-004
2	0	0	1	0	0	3,091944921890870E+003	-8,6362356E-001	-8,6412358E-001	-3,701859368640783E+000	9,000000000000000E+000	-7,2893147E+000	38	3,1988639E-003
2	0	0	1	0	0	3,111274721402544E+003	-1,0569216E+000	-1,0575213E+000	-8,056021421352597E+000	9,000000000000000E+000	-7,3999100E+000	38	8,5194148E-003
2	0	0	1	0	0	3,130421020918868E+003	-1,2483844E+000	-1,2490103E+000	-1,537006411726807E+001	9,000000000000000E+000	-7,6175857E+000	38	1,9197369E-002
2	0	0	1	0	1	3,148912720451728E+003	-1,0665869E+000	-1,0672032E+000	-8,296352171846181E+000	9,000000000000000E+000	-7,8347731E+000	38	8,8538937E-003
2	0	0	1	0	1	3,168242519963431E+003	-8,7328887E-001	-8,7378949E-001	-3,699837847833635E+000	9,000000000000000E+000	-7,9475560E+000	38	3,2328793E-003
2	0	0	1	0	1	3,187572119475124E+003	-6,7999274E-001	-6,8053931E-001	-1,141660453491332E+000	9,000000000000000E+000	-7,9910479E+000	38	7,7694480E-004
2	0	0	1	0	1	3,206901818986800E+003	-4,8669568E-001	-4,8715475E-001	-2,959555985072223E-001	9,000000000000000E+000	-8,0032682E+000	38	1,4417617E-004
2	0	0	1	0	1	3,226231518498491E+003	-2,9339865E-001	-2,9389301E-001	-6,374322791021558E-002	9,000000000000000E+000	-8,0061169E+000	38	1,8733688E-005
2	0	0	1	0	1	3,245561118010184E+003	-1,0010248E-001	-1,0054669E-001	-2,859995413997402E-002	9,000000000000000E+000	-8,0068951E+000	38	2,8756306E-006
2	0	0	1	0	1	3,263624317553869E+003	8,0529414E-002	8,0135830E-002	-1,043364323990886E-002	1,000000000000000E+001	-8,0072699E+000	38	-8,3610865E-007
2	0	0	1	0	1	3,282954117065558E+003	2,7382734E-001	2,7344126E-001	8,559694358153680E-003	1,000000000000000E+001	-8,0072746E+000	38	2,3405735E-006
2	1	0	1	0	1	3,302283716577251E+003	4,6712330E-001	4,6673694E-001	4,745273260884739E-002	1,000000000000000E+001	-8,0068398E+000	38	2,2147944E-005
2	1	0	1	0	1	3,319936116131328E+003	4,3612847E-001	4,3576643E-001	-3,653576137114939E-002	1,000000000000000E+001	-8,0065756E+000	38	-1,5921058E-005
2	0	0	1	0	1	3,339265715643021E+003	2,4283262E-001	2,4248113E-001	-2,289124139982207E-002	1,000000000000000E+001	-8,0069656E+000	38	-5,5506939E-006
2	0	0	1	0	1	3,358595315154715E+003	4,9536783E-002	4,9156941E-002	-4,254598884408264E-002	1,000000000000000E+001	-8,0075884E+000	38	-2,0914306E-006
2	0	0	1	0	1	3,377925114666388E+003	-1,4376122E-001	-1,4421543E-001	-6,671882484482144E-002	1,000000000000000E+001	-8,0086327E+000	38	9,6218846E-006
2	0	0	1	0	1	3,397254714178081E+003	-3,3705738E-001	-3,3754086E-001	-1,470612479189937E-001	1,000000000000000E+001	-8,0104418E+000	38	4,9639180E-005
2	0	0	1	0	1	3,416584313689775E+003	-5,3035349E-001	-5,3085470E-001	-6,804285719485788E-001	1,000000000000000E+001	-8,0172300E+000	38	3,6120872E-004
2	0	0	1	0	1	3,435914113201463E+003	-7,2365153E-001	-7,2418469E-001	-1,756020966680850E+000	1,000000000000000E+001	-8,0377474E+000	38	1,2716835E-003
2	0	0	1	0	1	3,455243712713156E+003	-9,1694748E-001	-9,1745144E-001	-4,562675108558324E+000	1,000000000000000E+001	-8,0960026E+000	38	4,1860328E-003
2	0	0	1	0	1	3,474573312224849E+003	-1,1102436E+000	-1,1108255E+000	-9,268679286619061E+000	1,000000000000000E+001	-8,2262068E+000	38	1,0295886E-002
2	0	0	1	0	0	3,492881911762335E+003	-1,2065589E+000	-1,2071434E+000	-1,302198054143429E+001	1,000000000000000E+001	-8,4532814E+000	38	1,5719399E-002
2	0	0	1	0	0	3,512211511274028E+003	-1,0132629E+000	-1,0138167E+000	-6,676788053771816E+000	1,000000000000000E+001	-8,6386080E+000	38	6,7690392E-003
2	0	0	1	0	0	3,531541110785722E+003	-8,1996673E-001	-8,2053304E-001	-2,723515222716074E+000	1,000000000000000E+001	-8,7256279E+000	38	2,2347341E-003
2	0	0	1	0	0	3,550870910297410E+003	-6,2666887E-001	-6,2716645E-001	-7,585433743008771E-001	1,000000000000000E+001	-8,7557049E+000	38	4,7573296E-004
2	0	0	1	0	0	3,570200509809103E+003	-4,3337274E-001	-4,3380898E-001	-1,878940718221442E-001	1,000000000000000E+001	-8,7638311E+000	38	8,1510138E-005
2	0	0	1	0	0	3,589530109320811E+003	-2,4007657E-001	-2,4058592E-001	-4,670924626415907E-002	1,000000000000000E+001	-8,7657108E+000	38	1,1237587E-005
2	0	0	1	0	0	3,608859908832485E+003	-4,6778508E-002	-4,7258925E-002	-2,688842720638207E-002	1,000000000000000E+001	-8,7663984E+000	38	1,2707181E-006
2	1	0	1	0	0	3,626923108376170E+003	1,3385347E-001	1,3351199E-001	-3,033163096426220E-003	1,100000000000000E+001	-8,7666826E+000	38	-4,0496363E-007
2	0	0	1	0	0	3,646252707887863E+003	3,2714945E-001	3,2678160E-001	1,339967943693099E-002	1,100000000000000E+001	-8,7666368E+000	38	4,3787686E-006
2	1	0	1	0	0	3,665582507399551E+003	5,2044725E-001	5,2003974E-001	8,754050517422907E-002	1,100000000000000E+001	-8,7659235E+000	38	4,5524543E-005
2	0	0	1	0	0	3,683234706953619E+003	3,8280651E-001	3,8242054E-001	-1,860524314849599E-002	1,100000000000000E+001	-8,7661533E+000	38	-7,1150271E-006
2	1	0	1	0	0	3,702564506465307E+003	1,8950871E-001	1,8912244E-001	-2,859804929375459E-002	1,100000000000000E+001	-8,7665663E+000	38	-5,4085326E-006
2	0	0	1	0	0	3,721894105977000E+003	-3,7871597E-003	-4,1842270E-003	-5,090773986290320E-002	1,100000000000000E+001	-8,7673225E+000	38	2,1300954E-007
2	0	0	1	0	0	3,741223705488708E+003	-1,9708332E-001	-1,9749552E-001	-7,828762848555404E-002	1,100000000000000E+001	-8,7685528E+000	38	1,5461455E-005
2	0	0	1	0	0	3,760553505000382E+003	-3,9038140E-001	-3,9092556E-001	-2,209971183702679E-001	1,100000000000000E+001	-8,7710094E+000	38	8,6393418E-005
2	0	0	1	0	0	3,779883104512075E+003	-5,8367741E-001	-5,8415520E-001	-7,632779250986648E-001	1,100000000000000E+001	-8,7805529E+000	38	4,4587278E-004
2	0	0	1	0	0	3,799212704023768E+003	-7,7697355E-001	-7,7750617E-001	-2,274863450410368E+000	1,100000000000000E+001	-8,8070688E+000	38	1,7687203E-003
2	0	0	1	0	0	3,818542503535456E+003	-9,7027153E-001	-9,7075140E-001	-5,445931036650144E+000	1,100000000000000E+001	-8,8787136E+000	38	5,2866451E-003
2	0	0	1	0	0	3,837872103047150E+003	-1,1635677E+000	-1,1641443E+000	-1,058449165551814E+001	1,100000000000000E+001	-9,0291471E+000	38	1,2321875E-002
2	0	0	1	0	1	3,856180502584655E+003	-1,1532370E+000	-1,1538737E+000	-1,033048306566727E+001	1,100000000000000E+001	-9,2526236E+000	38	1,1920072E-002
2	0	0	1	0	1	3,875510302096329E+003	-9,5993888E-001	-9,6050209E-001	-5,101451439635156E+000	1,100000000000000E+001	-9,3965149E+000	38	4,8999549E-003
2	0	0	1	0	1	3,894839901608022E+003	-7,6664251E-001	-7,6714593E-001	-1,989596184018154E+000	1,100000000000000E+001	-9,4621401E+000	38	1,5263106E-003
2	0	0	1	0	1	3,914169501119715E+003	-5,7334667E-001	-5,7388610E-001	-5,105184342784856E-001	1,100000000000000E+001	-9,4832287E+000	38	2,9297944E-004
2	0	0	1	0	1	3,933499300631403E+003	-3,8004854E-001	-3,8048589E-001	-1,037206588682451E-001	1,100000000000000E+001	-9,4883633E+000	38	3,9464248E-005
2	0	0	1	0	1	3,952828900143097E+003	-1,8675251E-001	-1,8723044E-001	-1,967444261240228E-002	1,100000000000000E+001	-9,4892845E+000	38	3,6836545E-006
2	0	0	1	0	1	3,970892099686782E+003	-6,1204727E-003	-6,5915491E-003	-9,505561398588089E-003	1,200000000000000E+001	-9,4895468E+000	38	6,2656376E-008
2	1	0	1	0	1	3,990221899198470E+003	1,8717751E-001	1,8678230E-001	1,115143780930066E-003	1,200000000000000E+001	-9,4895840E+000	38	2,0828912E-007
2	1	0	1	0	1	4,009551498710163E+003	3,8047329E-001	3,8005838E-001	2,211319486493224E-002	1,200000000000000E+001	-9,4893932E+000	38	8,4043049E-006
2	0	0	1	0	1	4,027203798264229E+003	5,2277952E-001	5,2236086E-001	6,179706309210352E-003	1,200000000000000E+001	-9,4884968E+000	38	3,2280368E-006
2	0	0	1	0	1	4,046533497775919E+003	3,2948264E-001	3,2915562E-001	-1,658836591335011E-002	1,200000000000000E+001	-9,4890757E+000	38	-5,4601537E-006
2	0	0	1	0	1	4,065863097287613E+003	1,3618678E-001	1,3574682E-001	-2,804986860186476E-002	1,200000000000000E+001	-9,4895124E+000	38	-3,8076805E-006
2	0	0	1	0	1	4,085192796799303E+003	-5,7110306E-002	-5,7648070E-002	-4,406904928200606E-002	1,200000000000000E+001	-9,4902067E+000	38	2,5404956E-006
2	0	0	1	0	1	4,104522496423117E+003	-2,5040743E-001	-2,5087127E-001	-6,965813179153912E-002	1,200000000000000E+001	-9,4912462E+000	38	1,7475224E-005
2	0	0	1	0	1	4,123852096189090E+003	-4,4370341E-001	-4,4416633E-001	-3,151183315992734E-001	1,200000000000000E+001	-9,4941969E+000	38	1,3996495E-004
2	0	0	1	0	1	4,143181895955073E+003	-6,3700145E-001	-6,3751191E-001	-9,677949758951740E-001	1,200000000000000E+001	-9,5065660E+000	38	6,1698083E-004
2	0	0	1	0	1	4,162511495721046E+003	-8,3029747E-001	-8,3083206E-001	-3,004316271696162E+000	1,200000000000000E+001	-9,5423603E+000	38	2,4960823E-003
2	0	0	1	0	1	4,181841095487020E+003	-1,0235937E+000	-1,0241661E+000	-6,978772485294627E+000	1,200000000000000E+001	-9,6351261E+000	38	7,1474221E-003
2	0	0	1	0	1	4,201170895252973E+003	-1,2168916E+000	-1,2174411E+000	-1,350513045408439E+001	1,200000000000000E+001	-9,8259926E+000	38	1,6441701E-002
2	0	0	1	0	0	4,219479295031328E+003	-1,0999130E+000	-1,1003584E+000	-9,087769699182957E+000	1,200000000000000E+001	-1,0051359E+001	38	9,9998033E-003
2	0	0	1	0	0	4,238808894797301E+003	-9,0661681E-001	-9,0713680E-001	-4,169567426570524E+000	1,200000000000000E+001	-1,0174786E+001	38	3,7823680E-003
2	0	0	1	0	0	4,258138694563255E+003	-7,1331871E-001	-7,1389014E-001	-1,312467772188871E+000	1,200000000000000E+001	-1,0224352E+001	38	9,3695777E-004
2	0	0	1	0	0	4,277468294329228E+003	-5,2002269E-001	-5,2056032E-001	-3,455667391212209E-001	1,200000000000000E+001	-1,0238299E+001	38	1,7988833E-004
2	0	0	1	0	0	4,296797894095202E+003	-3,2672659E-001	-3,2717687E-001	-7,044599673695373E-002	1,200000000000000E+001	-1,0241693E+001	38	2,3048300E-005
2	0	0	1	0	0	4,316127693861185E+003	-1,3342857E-001	-1,3391772E-001	-2,440739294394645E-002	1,200000000000000E+001	-1,0242449E+001	38	3,2685823E-006
2	0	0	1	0	0	4,334190893642473E+003	4,7203578E-002	4,6780996E-002	-1,434446326372708E-002	1,300000000000000E+001	-1,0242797E+001	38	-6,7104827E-007
2	0	0	1	0	0	4,353520493408447E+003	2,4049945E-001	2,4019782E-001	-2,726751859312260E-004	1,300000000000000E+001	-1,0242922E+001	38	-6,5495989E-008
2	1	0	1	0	0	4,372850293174444E+003	4,3379733E-001	4,3339574E-001	2,950180687826497E-002	1,300000000000000E+001	-1,0242679E+001	38	1,2785958E-005
2	0	0	1	0	0	4,390502492960717E+003	4,6945655E-001	4,6906629E-001	-5,735625254130294E-002	1,300000000000000E+001	-1,0242154E+001	38	-2,6903885E-005
2	0	0	1	0	0	4,409832092726690E+003	2,7616069E-001	2,7577198E-001	-2,422166052079948E-002	1,300000000000000E+001	-1,0242758E+001	38	-6,6796551E-006
2	0	0	1	0	0	4,429161892492659E+003	8,2862727E-002	8,2471848E-002	-3,895586102538662E-002	1,300000000000000E+001	-1,0243385E+001	38	-3,2127618E-006
2	0	0	1	0	0	4,448491492258632E+003	-1,1043324E-001	-1,1087699E-001	-5,550502357954146E-002	1,300000000000000E+001	-1,0244320E+001	38	6,1542301E-006
2	0	0	1	0	0	4,467821192024596E+003	-3,0373031E-001	-3,0418068E-001	-1,041723320301651E-001	1,300000000000000E+001	-1,0245721E+001	38	3,1687210E-005
2	0	0	1	0	0	4,487150891790559E+003	-4,9702731E-001	-4,9751374E-001	-5,022218445737323E-001	1,300000000000000E+001	-1,0250482E+001	38	2,4986226E-004
2	0	0	1	0	0	4,506480491556533E+003	-6,9032353E-001	-6,9084305E-001	-1,330893265222181E+000	1,300000000000000E+001	-1,0266553E+001	38	9,1943837E-004
2	0	0	1	0	0	4,525810291322530E+003	-8,8362157E-001	-8,8409442E-001	-3,775587981413675E+000	1,300000000000000E+001	-1,0313527E+001	38	3,3379763E-003
2	0	0	1	0	0	4,545139891088504E+003	-1,0769176E+000	-1,0775104E+000	-8,049422291694370E+000	1,300000000000000E+001	-1,0425385E+001	38	8,6733354E-003
2	0	0	1	0	1	4,563448290866814E+003	-1,2398870E+000	-1,2404702E+000	-1,399524083793835E+001	1,300000000000000E+001	-1,0629769E+001	38	1,7360678E-002
2	0	0	1	0	1	4,582777990632778E+003	-1,0465897E+000	-1,0471213E+000	-7,107883636112120E+000	1,300000000000000E+001	-1,0829638E+001	38	7,4428162E-003
2	0	0	1	0	1	4,602107690398771E+003	-8,5329258E-001	-8,5382754E-001	-3,138306091126442E+000	1,300000000000000E+001	-1,0925823E+001	38	2,6795722E-003
2	0	0	1	0	1	4,621437290164744E+003	-6,5999663E-001	-6,6039121E-001	-8,791473370792531E-001	1,300000000000000E+001	-1,0961185E+001	38	5,8058120E-004
2	0	0	1	0	1	4,640767089930698E+003	-4,6669865E-001	-4,6716598E-001	-2,238505580044192E-001	1,300000000000000E+001	-1,0970540E+001	38	1,0457537E-004
2	0	0	1	0	1	4,660096689696671E+003	-2,7340260E-001	-2,7384657E-001	-5,032289669123580E-002	1,300000000000000E+001	-1,0972738E+001	38	1,3780753E-005
2	0	0	1	0	1	4,679426289462644E+003	-8,0106594E-002	-8,0593064E-002	-2,478203075628166E-002	1,300000000000000E+001	-1,0973396E+001	38	1,9972599E-006
2	0	0	1	0	1	4,697489589243967E+003	1,0052646E-001	1,0020000E-001	-8,804489196196030E-003	1,400000000000000E+001	-1,0973740E+001	38	-8,8220986E-007
2	1	0	1	0	1	4,716819289009924E+003	2,9382330E-001	2,9347828E-001	5,343359018921544E-003	1,400000000000000E+001	-1,0973802E+001	38	1,5681599E-006
2	1	0	1	0	1	4,736148888775890E+003	4,8711944E-001	4,8677155E-001	5,789755230645699E-002	1,400000000000000E+001	-1,0973341E+001	38	2,8182882E-005
2	0	0	1	0	1	4,753801288562172E+003	4,1613266E-001	4,1576976E-001	-3,892748348495861E-002	1,400000000000000E+001	-1,0973314E+001	38	-1,6184871E-005
2	0	0	1	0	1	4,773130888328145E+003	2,2283667E-001	2,2244358E-001	-2,956254895871424E-002	1,400000000000000E+001	-1,0973784E+001	38	-6,5759991E-006
2	0	0	1	0	1	4,792460488094119E+003	2,9540787E-002	2,9125499E-002	-4,681908977950477E-002	1,400000000000000E+001	-1,0974528E+001	38	-1,3636293E-006
2	1	0	1	0	1	4,811790287860102E+003	-1,6375722E-001	-1,6423540E-001	-6,626558785708658E-002	1,400000000000000E+001	-1,0975610E+001	38	1,0883155E-005
2	0	0	1	0	1	4,831119887626075E+003	-3,5705325E-001	-3,5757619E-001	-1,529652231838159E-001	1,400000000000000E+001	-1,0977416E+001	38	5,4696720E-005
2	0	0	1	0	1	4,850449587392039E+003	-5,5035037E-001	-5,5085248E-001	-6,957677757432066E-001	1,400000000000000E+001	-1,0984673E+001	38	3,8326540E-004
2	0	0	1	0	1	4,869779287158002E+003	-7,4364734E-001	-7,4421221E-001	-1,782884095729045E+000	1,400000000000000E+001	-1,1005524E+001	38	1,3268441E-003
2	0	0	1	0	1	4,889108886923976E+003	-9,3694347E-001	-9,3746608E-001	-4,602581666088980E+000	1,400000000000000E+001	-1,1064324E+001	38	4,3147644E-003
2	0	0	1	0	1	4,908438586689968E+003	-1,1302407E+000	-1,1307722E+000	-9,214050442322474E+000	1,400000000000000E+001	-1,1194123E+001	38	1,0418992E-002
2	0	0	1	0	0	4,926747086468284E+003	-1,1865629E+000	-1,1871381E+000	-1,137712588419322E+001	1,400000000000000E+001	-1,1412190E+001	38	1,3506220E-002
2	0	0	1	0	0	4,946076686234257E+003	-9,9326694E-001	-9,9384522E-001	-5,551841703231364E+000	1,400000000000000E+001	-1,1570260E+001	38	5,5176714E-003
2	0	0	1	0	0	4,965406386000250E+003	-7,9996985E-001	-8,0051398E-001	-2,210241827600914E+000	1,400000000000000E+001	-1,1643099E+001	38	1,7693295E-003
2	0	0	1	0	0	4,984736085766213E+003	-6,0667276E-001	-6,0715443E-001	-6,004335185970806E-001	1,400000000000000E+001	-1,1667137E+001	38	3,6455586E-004
2	0	0	1	0	0	5,004065685532187E+003	-4,1337660E-001	-4,1391310E-001	-1,670174740886041E-001	1,400000000000000E+001	-1,1673788E+001	38	6,9130721E-005
2	0	0	1	0	0	5,023395485298141E+003	-2,2007851E-001	-2,2063141E-001	-6,986692067252087E-002	1,400000000000000E+001	-1,1675799E+001	38	1,5414837E-005
2	1	0	1	0	0	5,042725085064114E+003	-2,6782392E-002	-2,7183743E-002	-4,960644705204315E-002	1,400000000000000E+001	-1,1676953E+001	38	1,3484889E-006
2	0	0	1	0	0	5,060788284845446E+003	1,5384935E-001	1,5347722E-001	-2,200463790842337E-002	1,500000000000000E+001	-1,1677604E+001	38	-3,3772108E-006
2	0	0	1	0	0	5,080117884611420E+003	3,4714541E-001	3,4677219E-001	6,558953390063457E-004	1,500000000000000E+001	-1,1677851E+001	38	2,2744626E-007
2	1	0	1	0	0	5,099247684379792E+003	5,3844333E-001	5,3807110E-001	1,040875043909761E-001	1,500000000000000E+001	-1,1677229E+001	38	5,6006476E-005
2	1	0	1	0	0	5,117099884163661E+003	3,6281055E-001	3,6242604E-001	-4,103591425528130E-002	1,500000000000000E+001	-1,1677959E+001	38	-1,4872484E-005
2	1	0	1	0	0	5,136429683929615E+003	1,6951269E-001	1,6922633E-001	-5,406121014591880E-002	1,500000000000000E+001	-1,1678866E+001	38	-9,1485808E-006
2	0	0	1	0	0	5,155759283695588E+003	-2,3783166E-002	-2,4290968E-002	-7,551804984964317E-002	1,500000000000000E+001	-1,1680105E+001	38	1,8344065E-006
2	0	0	1	0	0	5,175088883461562E+003	-2,1707918E-001	-2,1751061E-001	-9,962968692964846E-002	1,500000000000000E+001	-1,1681777E+001	38	2,1670514E-005
2	0	0	1	0	0	5,194418683227559E+003	-4,1037726E-001	-4,1089353E-001	-2,507888295935432E-001	1,500000000000000E+001	-1,1684664E+001	38	1,0304751E-004
2	0	0	1	0	0	5,213748282993532E+003	-6,0367358E-001	-6,0416108E-001	-7,879006211057185E-001	1,500000000000000E+001	-1,1694928E+001	38	4,7601890E-004
2	0	0	1	0	0	5,233077882759491E+003	-7,9696959E-001	-7,9752856E-001	-2,326486623640918E+000	1,500000000000000E+001	-1,1722508E+001	38	1,8554395E-003
2	0	0	1	0	0	5,252407682525445E+003	-9,9026757E-001	-9,9090910E-001	-5,583384332917703E+000	1,500000000000000E+001	-1,1795977E+001	38	5,5326265E-003
2	0	0	1	0	0	5,271737282291419E+003	-1,1835637E+000	-1,1842031E+000	-1,095575710471423E+001	1,500000000000000E+001	-1,1949069E+001	38	1,2973842E-002
2	0	0	1	0	1	5,290045682069773E+003	-1,1332409E+000	-1,1338506E+000	-9,290955547249403E+000	1,500000000000000E+001	-1,2164950E+001	38	1,0534556E-002
2	0	0	1	0	1	5,309375481835727E+003	-9,3994290E-001	-9,4040889E-001	-4,530156525804969E+000	1,500000000000000E+001	-1,2295218E+001	38	4,2601996E-003
2	0	0	1	0	1	5,328705081601700E+003	-7,4664676E-001	-7,4720502E-001	-1,540784362719091E+000	1,500000000000000E+001	-1,2351149E+001	38	1,1512818E-003
2	0	0	1	0	1	5,348034681367673E+003	-5,5335063E-001	-5,5387205E-001	-4,019464975479874E-001	1,500000000000000E+001	-1,2367252E+001	38	2,2262693E-004
2	0	0	1	0	1	5,367364481133671E+003	-3,6005259E-001	-3,6057782E-001	-1,013596173035349E-001	1,500000000000000E+001	-1,2371490E+001	38	3,6548030E-005
2	0	0	1	0	1	5,386694080899644E+003	-1,6675654E-001	-1,6722009E-001	-4,093988467294052E-002	1,500000000000000E+001	-1,2372670E+001	38	6,8459713E-006
2	0	0	1	0	1	5,404757280680926E+003	1,3875416E-002	1,3479141E-002	-2,332057371692303E-002	1,600000000000000E+001	-1,2373273E+001	38	-3,1434129E-007
2	1	0	1	0	1	5,424087080446887E+003	2,0717347E-001	2,0680708E-001	-4,482229618715812E-003	1,600000000000000E+001	-1,2373510E+001	38	-9,2695683E-007
2	1	0	1	0	1	5,443416680212889E+003	4,0046945E-001	4,0014634E-001	2,160375944105757E-002	1,600000000000000E+001	-1,2373341E+001	38	8,6446653E-006
2	1	0	1	0	1	5,461069079999172E+003	5,0278246E-001	5,0242442E-001	-2,290807904875908E-002	1,600000000000000E+001	-1,2372537E+001	38	-1,1509578E-005
2	1	0	1	0	1	5,480398679765145E+003	3,0948672E-001	3,0914229E-001	-2,453524394498660E-002	1,600000000000000E+001	-1,2373231E+001	38	-7,5848816E-006
2	1	0	1	0	1	5,499728279531104E+003	1,1619077E-001	1,1577256E-001	-3,993883098857942E-002	1,600000000000000E+001	-1,2373830E+001	38	-4,6238206E-006
2	0	0	1	0	1	5,519058079297058E+003	-7,7107266E-002	-7,7558413E-002	-5,766649974100180E-002	1,600000000000000E+001	-1,2374772E+001	38	4,4725221E-006
2	0	0	1	0	1	5,538387679063031E+003	-2,7040341E-001	-2,7087790E-001	-9,367758674586546E-002	1,600000000000000E+001	-1,2376177E+001	38	2,5375188E-005
2	0	0	1	0	1	5,557717278829005E+003	-4,6369946E-001	-4,6417135E-001	-3,592330764718161E-001	1,600000000000000E+001	-1,2379737E+001	38	1,6674570E-004
2	0	0	1	0	1	5,577047078595002E+003	-6,5699744E-001	-6,5754342E-001	-1,020131082598567E+000	1,600000000000000E+001	-1,2392719E+001	38	6,7078049E-004
2	0	0	1	0	1	5,596376678360975E+003	-8,5029346E-001	-8,5088027E-001	-3,055695290783715E+000	1,600000000000000E+001	-1,2429447E+001	38	2,6000307E-003
2	0	0	1	0	1	5,615706278126949E+003	-1,0435895E+000	-1,0440968E+000	-6,834403700965112E+000	1,600000000000000E+001	-1,2522207E+001	38	7,1357791E-003
2	0	0	1	0	1	5,635036077892895E+003	-1,2368876E+000	-1,2375313E+000	-1,394999517625591E+001	1,600000000000000E+001	-1,2713513E+001	38	1,7263556E-002
2	0	0	1	0	0	5,653344477671257E+003	-1,0799170E+000	-1,0805987E+000	-7,986304419089535E+000	1,600000000000000E+001	-1,2920351E+001	38	8,6299898E-003
2	0	0	1	0	0	5,672674077437216E+003	-8,8662082E-001	-8,8706326E-001	-3,524145461200355E+000	1,600000000000000E+001	-1,3026649E+001	38	3,1261400E-003
2	0	0	1	0	0	5,692003877203169E+003	-6,9332278E-001	-6,9387078E-001	-1,043103538009252E+000	1,600000000000000E+001	-1,3067482E+001	38	7,2377909E-004
2	0	0	1	0	0	5,711333476969143E+003	-5,0002652E-001	-5,0052339E-001	-2,710488786587844E-001	1,600000000000000E+001	-1,3078482E+001	38	1,3566630E-004
2	0	0	1	0	0	5,730663076735116E+003	-3,0673060E-001	-3,0720058E-001	-6,769608233144919E-002	1,600000000000000E+001	-1,3081236E+001	38	2,0796277E-005
2	1	0	1	0	0	5,749992876501114E+003	-1,1343256E-001	-1,1390037E-001	-3,237187153043833E-002	1,600000000000000E+001	-1,3082088E+001	38	3,6871681E-006
2	0	0	1	0	0	5,768056076282395E+003	6,7199558E-002	6,6786051E-002	-1,376016790607287E-002	1,700000000000000E+001	-1,3082522E+001	38	-9,1898727E-007
2	1	0	1	0	0	5,787385676048369E+003	2,6049539E-001	2,6007131E-001	2,674083867702327E-003	1,700000000000000E+001	-1,3082613E+001	38	6,9545251E-007
2	0	0	1	0	0	5,806715475814359E+003	4,5379326E-001	4,5336342E-001	3,851463265890845E-002	1,700000000000000E+001	-1,3082279E+001	38	1,7461125E-005
2	1	0	1	0	0	5,824367675600617E+003	4,4946057E-001	4,4905519E-001	-5,634288739888738E-002	1,700000000000000E+001	-1,3081886E+001	38	-2,5301066E-005
2	1	0	1	0	0	5,843697475366615E+003	2,5616267E-001	2,5587717E-001	-2,567937920680097E-002	1,700000000000000E+001	-1,3082451E+001	38	-6,5707668E-006
2	1	0	1	0	0	5,863027075132588E+003	6,2866740E-002	6,2540837E-002	-4,309896669760704E-002	1,700000000000000E+001	-1,3083100E+001	38	-2,6954453E-006
2	0	0	1	0	0	5,882356674898561E+003	-1,3042936E-001	-1,3079403E-001	-6,494611383487447E-002	1,700000000000000E+001	-1,3084145E+001	38	8,4945641E-006
2	0	0	1	0	0	5,901686474664508E+003	-3,2372734E-001	-3,2419145E-001	-1,235455580733891E-001	1,700000000000000E+001	-1,3085787E+001	38	4,0052415E-005
2	0	0	1	0	0	5,921016074430481E+003	-5,1702350E-001	-5,1758319E-001	-5,467831958726403E-001	1,700000000000000E+001	-1,3091173E+001	38	2,8300579E-004
2	0	0	1	0	0	5,940345674196447E+003	-7,1031946E-001	-7,1074295E-001	-1,385916513556218E+000	1,700000000000000E+001	-1,3107776E+001	38	9,8503043E-004
2	0	0	1	0	0	5,959675473962445E+003	-9,0361756E-001	-9,0416843E-001	-3,867542236762951E+000	1,700000000000000E+001	-1,3155786E+001	38	3,4969095E-003
2	0	0	1	0	0	5,979005073728389E+003	-1,0969136E+000	-1,0974233E+000	-8,207944864044491E+000	1,700000000000000E+001	-1,3269300E+001	38	9,0075899E-003
2	0	0	1	0	1	5,997313473506729E+003	-1,2198910E+000	-1,2204398E+000	-1,292030102553062E+001	1,700000000000000E+001	-1,3477328E+001	38	1,5768450E-002
2	0	0	1	0	1	6,016643273272726E+003	-1,0265927E+000	-1,0271527E+000	-6,185036310168883E+000	1,700000000000000E+001	-1,3656498E+001	38	6,3529764E-003
2	0	0	1	0	1	6,035972873038700E+003	-8,3329672E-001	-8,3381718E-001	-2,568517860219430E+000	1,700000000000000E+001	-1,3738427E+001	38	2,1416743E-003
2	0	0	1	0	1	6,055302472804673E+003	-6,4000064E-001	-6,4045525E-001	-7,092544844846298E-001	1,700000000000000E+001	-1,3767101E+001	38	4,5424575E-004
2	0	0	1	0	1	6,074632272570620E+003	-4,4670266E-001	-4,4717875E-001	-1,838008647230089E-001	1,700000000000000E+001	-1,3774686E+001	38	8,2191844E-005
2	0	0	1	0	1	6,093961872336593E+003	-2,5340661E-001	-2,5381583E-001	-6,799227137676167E-002	1,700000000000000E+001	-1,3776779E+001	38	1,7257515E-005
2	1	0	1	0	1	6,113291472102559E+003	-6,0110588E-002	-6,0617965E-002	-3,830125951452143E-002	1,700000000000000E+001	-1,3777765E+001	38	2,3217444E-006
2	1	0	1	0	1	6,131354871883865E+003	1,2052348E-001	1,2018378E-001	-9,881644411470381E-003	1,800000000000000E+001	-1,3778193E+001	38	-1,1876134E-006
2	0	0	1	0	1	6,150684471649838E+003	3,1381941E-001	3,1341586E-001	1,068062076154262E-002	1,800000000000000E+001	-1,3778217E+001	38	3,3474760E-006
2	1	0	1	0	1	6,170014071415811E+003	5,0711536E-001	5,0680721E-001	7,565806127979213E-002	1,800000000000000E+001	-1,3777643E+001	38	3,8344049E-005
2	0	0	1	0	1	6,187666471202087E+003	3,9613658E-001	3,9574504E-001	-2,715286226857902E-002	1,800000000000000E+001	-1,3777751E+001	38	-1,0745611E-005
2	1	0	1	0	1	6,206996070968060E+003	2,0284067E-001	2,0256735E-001	-3,349517147368342E-002	1,800000000000000E+001	-1,3778281E+001	38	-6,7850283E-006
2	0	0	1	0	1	6,226325770734053E+003	9,5437476E-003	9,1819949E-003	-5,403419782876140E-002	1,800000000000000E+001	-1,3779122E+001	38	-4,9614175E-007
2	0	0	1	0	1	6,245655470500031E+003	-1,8375330E-001	-1,8414514E-001	-7,964501367901999E-002	1,800000000000000E+001	-1,3780390E+001	38	1,4666242E-005
2	1	0	1	0	1	6,264985070266004E+003	-3,7704936E-001	-3,7759921E-001	-1,814993452265115E-001	1,800000000000000E+001	-1,3782569E+001	38	6,8534013E-005
2	0	0	1	0	1	6,284314870031951E+003	-5,7034737E-001	-5,7075363E-001	-6,865835742990090E-001	1,800000000000000E+001	-1,3790563E+001	38	3,9187007E-004
2	0	0	1	0	1	6,303644469797924E+003	-7,6364332E-001	-7,6419795E-001	-1,906141712846235E+000	1,800000000000000E+001	-1,3812681E+001	38	1,4566695E-003
2	0	0	1	0	1	6,322974069563898E+003	-9,5693976E-001	-9,5739836E-001	-4,801539572247648E+000	1,800000000000000E+001	-1,3874692E+001	38	4,5969859E-003
2	0	0	1	0	1	6,342303869329859E+003	-1,1502378E+000	-1,1507986E+000	-9,718092680484745E+000	1,800000000000000E+001	-1,4009014E+001	38	1,1183567E-002
2	0	0	1	0	0	6,360612269108198E+003	-1,1665670E+000	-1,1672019E+000	-1,046010338455235E+001	1,800000000000000E+001	-1,4225987E+001	38	1,2209052E-002
2	0	0	1	0	0	6,379941868874172E+003	-9,7327089E-001	-9,7383142E-001	-4,963151162115082E+000	1,800000000000000E+001	-1,4368762E+001	38	4,8332727E-003
2	0	0	1	0	0	6,399271668640140E+003	-7,7997273E-001	-7,8040546E-001	-1,843385898964623E+000	1,800000000000000E+001	-1,4432105E+001	38	1,4385884E-003
2	0	0	1	0	0	6,418601268406142E+003	-5,8667666E-001	-5,8719033E-001	-4,786353987926606E-001	1,800000000000000E+001	-1,4451729E+001	38	2,8105007E-004
2	0	0	1	0	0	6,437930868172116E+003	-3,9338064E-001	-3,9392993E-001	-1,172132321760300E-001	1,800000000000000E+001	-1,4456726E+001	38	4,6173802E-005
2	0	0	1	0	0	6,457260667938062E+003	-2,0008264E-001	-2,0040470E-001	-4,208426912464958E-002	1,800000000000000E+001	-1,4458092E+001	38	8,4338853E-006
2	1	0	0	0	0	6,476273667707865E+003	-9,9525508E-003	-1,0221549E-002	-2,059584807491666E-002	1,800000000000000E+001	-1,4458715E+001	38	2,1052148E-007
2	1	0	1	0	0	6,494653467485361E+003	1,7384547E-001	1,7354222E-001	-2,906784401269908E-003	1,900000000000000E+001	-1,4458899E+001	38	-5,0444982E-007
2	1	0	0	0	0	6,508739667314803E+003	3,1498584E-001	3,1462029E-001	8,576394319534275E-002	1,900000000000000E+001	-1,4458845E+001	38	2,6983076E-005